Folder: graphene-raman/Muestras y catálogo/Older versions/Raman_v1.0/Muestras_12-11-24/Data

File: Muestra 1_100x_zona1_rojo.txt
-174.488	1149.3
-155.697	1148.5
-136.943	1148
-118.226	1147.6
-99.5451	1147.7
-80.9009	1148.4
-62.2932	1149.1
-43.7218	1149.1
-25.1866	1146
-6.6877	1148.6
11.7752	1150.1
30.202	1148.4
48.593	1148.6
66.9481	1149.5
85.2675	1299.4
103.551	1370.8
121.799	1351.4
140.012	1327.5
158.189	1317.5
176.332	1308
194.438	1302
212.51	1307.8
230.547	1337.2
248.548	1344.8
266.515	1363.8
284.447	1378.7
302.345	1461.2
320.208	1384.1
338.036	1338.6
355.83	1319.6
373.589	1314.6
391.314	1296.3
409.005	1288.3
426.662	1293.7
444.285	1270.3
461.874	1240.7
479.429	1269.1
496.95	1359.3
514.438	4636.6
531.892	2348.3
549.312	1383.5
566.699	1272.1
584.053	1252.1
601.373	1245.7
618.66	1270.4
635.914	1247.1
653.135	1250.2
670.324	1254.1
687.479	1238.6
704.601	1217
721.691	1210.8
738.748	1211.1
755.772	1220.4
772.764	1225.6
789.724	1223.3
806.651	1238.1
823.546	1247.1
840.409	1235.3
857.24	1238.7
874.039	1235.9
890.806	1238.2
907.541	1240.3
924.244	1292.8
940.915	1596.2
957.555	1615.7
974.164	1612.1
990.741	1477.8
1007.29	1311.4
1023.8	1247.7
1040.28	1203
1056.74	1197
1073.16	1194
1089.55	1187.8
1105.91	1193.3
1122.23	1186.8
1138.53	1187.5
1154.8	1188.1
1171.03	1182.3
1187.24	1179.9
1203.41	1183.7
1219.56	1188
1235.67	1180.9
1251.76	1185.9
1267.81	1186.3
1283.83	1184.4
1299.83	1186.9
1315.79	1188.5
1331.73	1190.5
1347.63	1196.2
1363.5	1186.7
1379.35	1186.4
1395.16	1187.4
1410.95	1188.9
1426.71	1183.3
1442.43	1189.4
1458.13	1188.4
1473.8	1186.8
1489.44	1182.4
1505.05	1183.2
1520.63	1185.9
1536.18	1192
1551.71	1204.4
1567.2	1255.8
1582.67	1606.1
1598.11	1267.7
1613.51	1203.9
1628.89	1190.7
1644.25	1182.8
1659.57	1182.8
1674.87	1181.2
1690.13	1182.9
1705.37	1176.3
1720.58	1177.6
1735.77	1173.8
1750.92	1179.1
1766.05	1174.7
1781.15	1176.7
1796.22	1173
1811.26	1178.5
1826.28	1175.7
1841.27	1176.4
1856.23	1182.8
1871.17	1181.8
1886.07	1181.5
1900.95	1178.5
1915.81	1173.9
1930.63	1173.7
1945.43	1172.3
1960.2	1175.6
1974.95	1176.6
1989.67	1176.7
2004.36	1176.3
2019.02	1174.7
2033.66	1177.2
2048.27	1175.5
2062.86	1174.6
2077.42	1173.9
2091.95	1175.4
2106.46	1173.3
2120.94	1177
2135.39	1170.1
2149.82	1172.5
2164.22	1173
2178.6	1171.2
2192.95	1174.7
2207.28	1174.9
2221.57	1174.2
2235.85	1172.7
2250.1	1173
2264.32	1170.7
2278.52	1175.2
2292.69	1173.5
2306.83	1173.6
2320.95	1172.1
2335.05	1177.1
2349.12	1173
2363.17	1172.4
2377.19	1173.1
2391.18	1179.2
2405.15	1175.1
2419.1	1176.6
2433.02	1181.7
2446.92	1200.3
2460.79	1204.3
2474.64	1195
2488.46	1186.7
2502.26	1184.2
2516.04	1182.9
2529.79	1179
2543.51	1177.8
2557.22	1182
2570.89	1180.8
2584.55	1181.6
2598.18	1180.1
2611.79	1191.9
2625.37	1213.2
2638.93	1250.9
2652.46	1396.2
2665.97	1742.3
2679.46	1831.9
2692.93	1495.1
2706.37	1291.2
2719.79	1221.5
2733.18	1196.2
2746.55	1185.4
2759.9	1182
2773.22	1179.6
2786.53	1178.5
2799.81	1177.8
2813.06	1174.9
2826.3	1170
2839.51	1177.3
2852.69	1170.5
2865.86	1175.6
2879	1172.7
2892.12	1168.9
2905.22	1172.3
2918.29	1171.4
2931.35	1168.8
2944.38	1169.8
2957.38	1165.8
2970.37	1164.9
2983.33	1168.9
2996.27	1169.7
3009.19	1166.5
3022.09	1164.7
3034.97	1169
3047.82	1164.6
3060.65	1168.2
3073.46	1168
3086.25	1165.6
3099.02	1167.8
3111.77	1166.5
3124.49	1165.5
3137.19	1164.8
3149.87	1164.7
3162.53	1164.9
3175.17	1165.8
3187.79	1163.5
3200.39	1163.1
3212.96	1165.5
3225.52	1168.4
3238.05	1188
3250.56	1181.4
3263.05	1164.3
3275.52	1160.8
3287.97	1159.7
3300.4	1162
3312.81	1162
3325.2	1159.1
3337.57	1158
3349.92	1163.3
3362.24	1158.9
3374.55	1158.1
3386.83	1162.8
3399.1	1159.6
3411.35	1159.5
3423.57	1158.7
3435.78	1158.7
3447.96	1155.8
3460.13	1159.8
3472.27	1158.2
3484.4	1158.4
3496.5	1158
3508.59	1155.1
3520.66	1156.9
3532.7	1154.9
3544.73	1160
3556.74	1157.4
3568.73	1158.5
3580.7	1154.3
3592.64	1154
3604.57	1156.1
3616.48	1153.5
3628.38	1156.8
3640.25	1153.6
3652.1	1158.5
3663.94	1154.1
3675.75	1154.9
3687.55	1155
3699.32	1156.7
3711.08	1154.6
3722.82	1155.4
3734.54	1155.7
3746.24	1153.1
3757.92	1154.9
3769.59	1155.5
3775.41	1151.5

File: Muestra 1_100x_zona2_rojo.txt
-174.488	1147.4
-155.697	1147.5
-136.943	1147.4
-118.226	1146.5
-99.5451	1146.7
-80.9009	1147.1
-62.2932	1149.8
-43.7218	1148.5
-25.1866	1148.7
-6.6877	1148.2
11.7752	1148.8
30.202	1148.3
48.593	1148.7
66.9481	1149.5
85.2675	1231.2
103.551	1276.5
121.799	1266.2
140.012	1250.9
158.189	1246
176.332	1241.9
194.438	1234.9
212.51	1237.1
230.547	1258.9
248.548	1265.4
266.515	1276.1
284.447	1281.9
302.345	1324
320.208	1278.3
338.036	1260.7
355.83	1244.5
373.589	1237.3
391.314	1229.4
409.005	1227.5
426.662	1229.5
444.285	1219.8
461.874	1200.5
479.429	1218.6
496.95	1274.3
514.438	3086.7
531.892	1773
549.312	1271.8
566.699	1211.8
584.053	1203.5
601.373	1201
618.66	1218.2
635.914	1204.7
653.135	1201.3
670.324	1206.6
687.479	1202.6
704.601	1185.7
721.691	1183.7
738.748	1185.2
755.772	1188.5
772.764	1192.4
789.724	1197.6
806.651	1199.6
823.546	1203.7
840.409	1193.7
857.24	1196.2
874.039	1194.9
890.806	1197.8
907.541	1201.2
924.244	1224.9
940.915	1381
957.555	1401
974.164	1406.2
990.741	1317.3
1007.29	1236.9
1023.8	1204.7
1040.28	1178.8
1056.74	1172
1073.16	1171.9
1089.55	1179.3
1105.91	1175.1
1122.23	1174.4
1138.53	1174.4
1154.8	1173.2
1171.03	1173
1187.24	1171
1203.41	1170.4
1219.56	1170.7
1235.67	1171.8
1251.76	1173.8
1267.81	1172.7
1283.83	1173.4
1299.83	1176.5
1315.79	1179.3
1331.73	1179.2
1347.63	1179.4
1363.5	1173.4
1379.35	1177.8
1395.16	1173.4
1410.95	1173.1
1426.71	1177.7
1442.43	1178.1
1458.13	1177.1
1473.8	1175.2
1489.44	1173
1505.05	1172.2
1520.63	1179.9
1536.18	1183.6
1551.71	1189.8
1567.2	1233.8
1582.67	1590.9
1598.11	1276.9
1613.51	1198.2
1628.89	1185.3
1644.25	1172.1
1659.57	1170.1
1674.87	1167.8
1690.13	1172.2
1705.37	1168.6
1720.58	1169.7
1735.77	1164.8
1750.92	1164.1
1766.05	1169.3
1781.15	1170.4
1796.22	1168.4
1811.26	1165.4
1826.28	1168
1841.27	1170.4
1856.23	1172
1871.17	1169.2
1886.07	1166.7
1900.95	1167.4
1915.81	1168.8
1930.63	1167.4
1945.43	1166.4
1960.2	1170.8
1974.95	1167.3
1989.67	1170.2
2004.36	1170.3
2019.02	1171.5
2033.66	1167.5
2048.27	1171.7
2062.86	1169.9
2077.42	1169.3
2091.95	1162.3
2106.46	1164.1
2120.94	1163.8
2135.39	1166.1
2149.82	1165.6
2164.22	1166.1
2178.6	1167
2192.95	1169.1
2207.28	1167.9
2221.57	1170.9
2235.85	1167.6
2250.1	1171.1
2264.32	1163.7
2278.52	1166.2
2292.69	1163
2306.83	1166.4
2320.95	1168.3
2335.05	1167.3
2349.12	1168.4
2363.17	1167.5
2377.19	1169.2
2391.18	1170.3
2405.15	1169.6
2419.1	1174.9
2433.02	1178.8
2446.92	1202
2460.79	1208.1
2474.64	1188.5
2488.46	1188
2502.26	1178.4
2516.04	1177.8
2529.79	1175.8
2543.51	1177.2
2557.22	1177.1
2570.89	1176.5
2584.55	1174.1
2598.18	1184.3
2611.79	1185.9
2625.37	1208.7
2638.93	1256.9
2652.46	1436.8
2665.97	1880.8
2679.46	2048.7
2692.93	1613.6
2706.37	1333.3
2719.79	1235.5
2733.18	1200.4
2746.55	1186.6
2759.9	1178.4
2773.22	1178
2786.53	1172.4
2799.81	1173.4
2813.06	1171.1
2826.3	1168.7
2839.51	1172.5
2852.69	1172.4
2865.86	1169.2
2879	1168.3
2892.12	1170.4
2905.22	1169.5
2918.29	1174.4
2931.35	1170
2944.38	1166.4
2957.38	1168.2
2970.37	1164.6
2983.33	1163.5
2996.27	1163.7
3009.19	1166.1
3022.09	1162.3
3034.97	1162.2
3047.82	1164.6
3060.65	1162
3073.46	1162.6
3086.25	1163.6
3099.02	1162
3111.77	1162.4
3124.49	1161.4
3137.19	1164.9
3149.87	1162.6
3162.53	1163.5
3175.17	1163
3187.79	1160
3200.39	1160.2
3212.96	1162.8
3225.52	1163.6
3238.05	1197.4
3250.56	1185.3
3263.05	1163.6
3275.52	1161.1
3287.97	1157.5
3300.4	1163
3312.81	1160
3325.2	1158.4
3337.57	1159.7
3349.92	1157.5
3362.24	1160.3
3374.55	1156.5
3386.83	1158.2
3399.1	1160.8
3411.35	1156.8
3423.57	1158.9
3435.78	1157.1
3447.96	1158.9
3460.13	1158.4
3472.27	1158.6
3484.4	1158.1
3496.5	1156.8
3508.59	1158.6
3520.66	1158.2
3532.7	1157.1
3544.73	1158.9
3556.74	1154.3
3568.73	1159.6
3580.7	1157.5
3592.64	1155.8
3604.57	1157.7
3616.48	1157.9
3628.38	1155.9
3640.25	1157.4
3652.1	1156.5
3663.94	1154.7
3675.75	1154.5
3687.55	1157.1
3699.32	1156.9
3711.08	1153.3
3722.82	1156.2
3734.54	1154.1
3746.24	1152.3
3757.92	1152
3769.59	1155
3775.41	1153.2

File: Muestra 2_100x_zona1_rojo.txt
-174.488	1150.1
-155.697	1147.2
-136.943	1149.2
-118.226	1148.5
-99.5451	1147.7
-80.9009	1149.1
-62.2932	1147.9
-43.7218	1149.6
-25.1866	1147.9
-6.6877	1147.7
11.7752	1149.7
30.202	1147.9
48.593	1147.4
66.9481	1146.9
85.2675	1345.5
103.551	1463.1
121.799	1461.7
140.012	1402.5
158.189	1413.5
176.332	1392.8
194.438	1378.1
212.51	1393.7
230.547	1421.9
248.548	1431.9
266.515	1448.2
284.447	1453
302.345	1500.9
320.208	1442.4
338.036	1434.6
355.83	1415.3
373.589	1414.7
391.314	1399.2
409.005	1401.8
426.662	1396.6
444.285	1389.6
461.874	1359.7
479.429	1374.5
496.95	1440.5
514.438	3645.3
531.892	2030.6
549.312	1440.1
566.699	1386
584.053	1372.3
601.373	1361.8
618.66	1382.5
635.914	1369.3
653.135	1369.6
670.324	1376.7
687.479	1357.3
704.601	1359.9
721.691	1355.2
738.748	1350.2
755.772	1354.9
772.764	1368.8
789.724	1364.9
806.651	1365.5
823.546	1378.7
840.409	1375.1
857.24	1385.5
874.039	1377.3
890.806	1377.4
907.541	1385.9
924.244	1419.8
940.915	1621
957.555	1648.9
974.164	1658.8
990.741	1561.2
1007.29	1453.1
1023.8	1424.8
1040.28	1393.1
1056.74	1394.6
1073.16	1404.9
1089.55	1408.5
1105.91	1432.2
1122.23	1442.6
1138.53	1447
1154.8	1447.1
1171.03	1457.1
1187.24	1471.6
1203.41	1488.8
1219.56	1519
1235.67	1517.8
1251.76	1535.6
1267.81	1558.4
1283.83	1575.2
1299.83	1607.3
1315.79	1624.8
1331.73	1704.3
1347.63	1741.4
1363.5	1675.5
1379.35	1644.5
1395.16	1638.6
1410.95	1668.2
1426.71	1658
1442.43	1650.2
1458.13	1645.2
1473.8	1658.2
1489.44	1672.9
1505.05	1682.2
1520.63	1727.6
1536.18	1792.8
1551.71	2003.5
1567.2	3093.8
1582.67	3352.6
1598.11	2089.8
1613.51	1775.5
1628.89	1596.1
1644.25	1511.1
1659.57	1458
1674.87	1431.4
1690.13	1418.7
1705.37	1416.3
1720.58	1394.5
1735.77	1383.5
1750.92	1390.6
1766.05	1388
1781.15	1387.8
1796.22	1382.1
1811.26	1381.1
1826.28	1378
1841.27	1376.1
1856.23	1371.7
1871.17	1381.3
1886.07	1375.5
1900.95	1373.1
1915.81	1366.6
1930.63	1361.4
1945.43	1377.8
1960.2	1362.9
1974.95	1367.7
1989.67	1370
2004.36	1372
2019.02	1372.7
2033.66	1365.3
2048.27	1366.1
2062.86	1349.9
2077.42	1365.8
2091.95	1361.8
2106.46	1355.4
2120.94	1348.9
2135.39	1345.3
2149.82	1352.8
2164.22	1367.2
2178.6	1347.8
2192.95	1355.4
2207.28	1353.7
2221.57	1348.6
2235.85	1345.4
2250.1	1356.7
2264.32	1349.2
2278.52	1340.4
2292.69	1352.7
2306.83	1354.1
2320.95	1354.9
2335.05	1346.4
2349.12	1357.4
2363.17	1342.5
2377.19	1361.2
2391.18	1351.8
2405.15	1365.1
2419.1	1382.2
2433.02	1425.2
2446.92	1422.9
2460.79	1407.6
2474.64	1397.3
2488.46	1383.2
2502.26	1372.5
2516.04	1375.6
2529.79	1370.3
2543.51	1372.8
2557.22	1374.2
2570.89	1386.8
2584.55	1385.6
2598.18	1401.7
2611.79	1434
2625.37	1484.4
2638.93	1580.4
2652.46	1843.4
2665.97	2381.8
2679.46	2914.4
2692.93	2666.9
2706.37	2010
2719.79	1664.3
2733.18	1505.2
2746.55	1441.8
2759.9	1400.1
2773.22	1386
2786.53	1367.2
2799.81	1363.3
2813.06	1348.6
2826.3	1349.7
2839.51	1338.1
2852.69	1338
2865.86	1323.4
2879	1330.3
2892.12	1324
2905.22	1323
2918.29	1321.4
2931.35	1314.5
2944.38	1311.4
2957.38	1300.9
2970.37	1299.2
2983.33	1287.6
2996.27	1291.7
3009.19	1289.4
3022.09	1275.5
3034.97	1277
3047.82	1279.6
3060.65	1266.9
3073.46	1266.8
3086.25	1271.2
3099.02	1266.6
3111.77	1263.7
3124.49	1255.1
3137.19	1262.9
3149.87	1262.2
3162.53	1260.1
3175.17	1259.3
3187.79	1254.1
3200.39	1255.6
3212.96	1259.4
3225.52	1286.2
3238.05	1279.2
3250.56	1247.5
3263.05	1240.4
3275.52	1233.1
3287.97	1220.5
3300.4	1221.4
3312.81	1225.6
3325.2	1219
3337.57	1225.2
3349.92	1220.7
3362.24	1218.9
3374.55	1220.2
3386.83	1214.9
3399.1	1216.2
3411.35	1212.8
3423.57	1212.8
3435.78	1212.4
3447.96	1210.2
3460.13	1202.3
3472.27	1212.3
3484.4	1205.1
3496.5	1204.3
3508.59	1201.9
3520.66	1201.3
3532.7	1198.1
3544.73	1196.3
3556.74	1200.1
3568.73	1195.6
3580.7	1192.3
3592.64	1193.8
3604.57	1190.6
3616.48	1192.4
3628.38	1185
3640.25	1188.9
3652.1	1186.1
3663.94	1182.9
3675.75	1181.8
3687.55	1187.5
3699.32	1179.6
3711.08	1181.5
3722.82	1180.6
3734.54	1177.2
3746.24	1179.4
3757.92	1180
3769.59	1177.2
3775.41	1177.8

File: Muestra 2_100x_zona1_rosa.txt
-174.488	1147.7
-155.697	1145.9
-136.943	1147.9
-118.226	1146.8
-99.5451	1146
-80.9009	1149.1
-62.2932	1150.1
-43.7218	1148.5
-25.1866	1147.4
-6.6877	1147.3
11.7752	1148.2
30.202	1149.4
48.593	1148.4
66.9481	1149.9
85.2675	1322.8
103.551	1409.8
121.799	1392.3
140.012	1367.1
158.189	1342.2
176.332	1330.2
194.438	1318.8
212.51	1327.3
230.547	1357.4
248.548	1372.9
266.515	1383.6
284.447	1416.3
302.345	1509.1
320.208	1403.6
338.036	1372.3
355.83	1351.7
373.589	1322.8
391.314	1304.5
409.005	1306
426.662	1313.7
444.285	1276.4
461.874	1246.1
479.429	1276.7
496.95	1391.4
514.438	5371.8
531.892	2513.3
549.312	1399.2
566.699	1288.3
584.053	1255.3
601.373	1257.5
618.66	1283
635.914	1253.4
653.135	1256.7
670.324	1266.5
687.479	1248.9
704.601	1226.8
721.691	1210.4
738.748	1223.5
755.772	1226.4
772.764	1225
789.724	1231.6
806.651	1233
823.546	1253.8
840.409	1234.4
857.24	1241.8
874.039	1242.9
890.806	1252.2
907.541	1257.6
924.244	1298.3
940.915	1649.7
957.555	1647.6
974.164	1679.4
990.741	1499.5
1007.29	1318.5
1023.8	1255.4
1040.28	1197.6
1056.74	1182.7
1073.16	1183.9
1089.55	1181.3
1105.91	1179
1122.23	1179.1
1138.53	1181.4
1154.8	1177.2
1171.03	1175.2
1187.24	1173.7
1203.41	1171.2
1219.56	1172.2
1235.67	1176.6
1251.76	1174.9
1267.81	1174.7
1283.83	1177.8
1299.83	1174.6
1315.79	1170.8
1331.73	1173.4
1347.63	1173
1363.5	1171.3
1379.35	1171.2
1395.16	1173.5
1410.95	1175.5
1426.71	1175
1442.43	1175.3
1458.13	1174.4
1473.8	1168.8
1489.44	1171.6
1505.05	1163.7
1520.63	1165.8
1536.18	1165.7
1551.71	1166.4
1567.2	1171.7
1582.67	1170.9
1598.11	1170.2
1613.51	1166
1628.89	1167.5
1644.25	1169
1659.57	1168.8
1674.87	1169.9
1690.13	1167.4
1705.37	1169
1720.58	1166.7
1735.77	1166.4
1750.92	1169.9
1766.05	1168.9
1781.15	1168.8
1796.22	1167.4
1811.26	1166.4
1826.28	1164.1
1841.27	1164.1
1856.23	1166.6
1871.17	1163.9
1886.07	1165.9
1900.95	1163.7
1915.81	1164
1930.63	1169
1945.43	1164.6
1960.2	1164.3
1974.95	1164.5
1989.67	1164.4
2004.36	1167.7
2019.02	1165.6
2033.66	1165.3
2048.27	1162.7
2062.86	1163.7
2077.42	1163
2091.95	1166.9
2106.46	1168.1
2120.94	1160.7
2135.39	1162.9
2149.82	1166.1
2164.22	1162.5
2178.6	1163.4
2192.95	1164.5
2207.28	1166.9
2221.57	1166.2
2235.85	1164.6
2250.1	1166.2
2264.32	1166.2
2278.52	1164.9
2292.69	1165.2
2306.83	1165.5
2320.95	1162.9
2335.05	1164.6
2349.12	1162.1
2363.17	1161.6
2377.19	1164.1
2391.18	1165.6
2405.15	1160.6
2419.1	1166.1
2433.02	1162
2446.92	1165.8
2460.79	1164.6
2474.64	1164.3
2488.46	1165.6
2502.26	1167.8
2516.04	1166
2529.79	1163.4
2543.51	1160
2557.22	1167.8
2570.89	1162.2
2584.55	1164
2598.18	1163.6
2611.79	1162.1
2625.37	1162.4
2638.93	1162
2652.46	1162
2665.97	1164.6
2679.46	1162.6
2692.93	1163
2706.37	1166.9
2719.79	1162.7
2733.18	1161.1
2746.55	1158
2759.9	1164.6
2773.22	1162.6
2786.53	1164.1
2799.81	1163.1
2813.06	1163.2
2826.3	1163.6
2839.51	1160.8
2852.69	1161.9
2865.86	1163.4
2879	1160.5
2892.12	1163.9
2905.22	1160.8
2918.29	1163.1
2931.35	1160.9
2944.38	1161.1
2957.38	1160.4
2970.37	1163.4
2983.33	1157
2996.27	1160.8
3009.19	1163.6
3022.09	1159.8
3034.97	1161.8
3047.82	1162.3
3060.65	1159.9
3073.46	1160.3
3086.25	1162.2
3099.02	1161.9
3111.77	1160.9
3124.49	1157.5
3137.19	1159.2
3149.87	1158.1
3162.53	1158.7
3175.17	1161.5
3187.79	1162.8
3200.39	1162.1
3212.96	1159.6
3225.52	1158.2
3238.05	1157.6
3250.56	1156.7
3263.05	1159.7
3275.52	1158.2
3287.97	1157
3300.4	1158.2
3312.81	1159.2
3325.2	1159.8
3337.57	1155.6
3349.92	1154
3362.24	1154.8
3374.55	1156.9
3386.83	1159.2
3399.1	1157.2
3411.35	1157
3423.57	1157.4
3435.78	1156.6
3447.96	1159.2
3460.13	1153.6
3472.27	1153.1
3484.4	1158
3496.5	1157.2
3508.59	1153.9
3520.66	1154
3532.7	1155.1
3544.73	1158.3
3556.74	1154.6
3568.73	1153.9
3580.7	1152.7
3592.64	1153.3
3604.57	1153.6
3616.48	1155.1
3628.38	1154.3
3640.25	1153.6
3652.1	1154.5
3663.94	1154.9
3675.75	1158
3687.55	1153.4
3699.32	1153.2
3711.08	1153.3
3722.82	1151.8
3734.54	1152.1
3746.24	1157.9
3757.92	1153.5
3769.59	1154.4
3775.41	1150.2

File: Muestra 2_100x_zona2_rosa.txt
-174.488	1146.8
-155.697	1147.3
-136.943	1146.3
-118.226	1148.6
-99.5451	1148.3
-80.9009	1147.9
-62.2932	1147.3
-43.7218	1148.8
-25.1866	1147.9
-6.6877	1148.6
11.7752	1148.6
30.202	1147.1
48.593	1147
66.9481	1148.2
85.2675	1321.1
103.551	1413.3
121.799	1395.7
140.012	1359
158.189	1347
176.332	1320.8
194.438	1321.4
212.51	1324.1
230.547	1370.2
248.548	1376.1
266.515	1382
284.447	1417.8
302.345	1507.6
320.208	1399
338.036	1366.3
355.83	1340.6
373.589	1318.8
391.314	1314.4
409.005	1304.8
426.662	1307.3
444.285	1285.6
461.874	1252.5
479.429	1282.3
496.95	1379.2
514.438	5230.7
531.892	2459.6
549.312	1397.1
566.699	1292.1
584.053	1255
601.373	1257.7
618.66	1284.5
635.914	1264.6
653.135	1252.9
670.324	1260.5
687.479	1243.1
704.601	1220.6
721.691	1213.9
738.748	1216.4
755.772	1219.2
772.764	1222.7
789.724	1223.1
806.651	1240.8
823.546	1251.9
840.409	1240.9
857.24	1237.8
874.039	1245.1
890.806	1241.7
907.541	1252.2
924.244	1292.4
940.915	1641.3
957.555	1634.4
974.164	1670.2
990.741	1488.6
1007.29	1306.6
1023.8	1248.2
1040.28	1197.3
1056.74	1183.1
1073.16	1189.2
1089.55	1181.2
1105.91	1184.2
1122.23	1180.2
1138.53	1177.6
1154.8	1177.9
1171.03	1175.2
1187.24	1174.7
1203.41	1171
1219.56	1173.8
1235.67	1176.1
1251.76	1174.3
1267.81	1174.1
1283.83	1178.9
1299.83	1173.1
1315.79	1178.6
1331.73	1176.7
1347.63	1175.1
1363.5	1174
1379.35	1173.3
1395.16	1174
1410.95	1170.6
1426.71	1177.2
1442.43	1177
1458.13	1178.7
1473.8	1170.8
1489.44	1170.6
1505.05	1177.4
1520.63	1167.4
1536.18	1169.7
1551.71	1171
1567.2	1171.8
1582.67	1168.3
1598.11	1174.8
1613.51	1168.6
1628.89	1167
1644.25	1170.4
1659.57	1168.1
1674.87	1170.2
1690.13	1168.4
1705.37	1169
1720.58	1164.7
1735.77	1165.1
1750.92	1168.2
1766.05	1169
1781.15	1168.2
1796.22	1165.4
1811.26	1164.2
1826.28	1169.4
1841.27	1166.3
1856.23	1169.9
1871.17	1167
1886.07	1168.6
1900.95	1165.3
1915.81	1172.7
1930.63	1170.3
1945.43	1167.9
1960.2	1164.8
1974.95	1166.6
1989.67	1165.3
2004.36	1168.4
2019.02	1166.8
2033.66	1164.5
2048.27	1166
2062.86	1166.3
2077.42	1165.1
2091.95	1166.2
2106.46	1164.3
2120.94	1164.3
2135.39	1162.7
2149.82	1163.8
2164.22	1169
2178.6	1165.1
2192.95	1163.1
2207.28	1164.8
2221.57	1169.3
2235.85	1163.7
2250.1	1168.2
2264.32	1163
2278.52	1165
2292.69	1165
2306.83	1167.6
2320.95	1163.3
2335.05	1166
2349.12	1163.8
2363.17	1165.2
2377.19	1167.3
2391.18	1167.9
2405.15	1166.1
2419.1	1166.3
2433.02	1170
2446.92	1163.6
2460.79	1162.8
2474.64	1166.8
2488.46	1164.3
2502.26	1166.9
2516.04	1167.9
2529.79	1164.3
2543.51	1164.5
2557.22	1168.1
2570.89	1166.4
2584.55	1167.7
2598.18	1165.4
2611.79	1166.3
2625.37	1162.9
2638.93	1164.4
2652.46	1165.9
2665.97	1164.5
2679.46	1164.2
2692.93	1165.9
2706.37	1166
2719.79	1165.6
2733.18	1164.7
2746.55	1166.3
2759.9	1162.2
2773.22	1162.8
2786.53	1165.8
2799.81	1165.8
2813.06	1165.1
2826.3	1163.3
2839.51	1162.7
2852.69	1165.7
2865.86	1162.5
2879	1164.2
2892.12	1161.8
2905.22	1161.7
2918.29	1164.3
2931.35	1162.4
2944.38	1163.2
2957.38	1167
2970.37	1160.8
2983.33	1159.8
2996.27	1164.3
3009.19	1162.5
3022.09	1162.6
3034.97	1161.4
3047.82	1163.2
3060.65	1164.1
3073.46	1159.8
3086.25	1160
3099.02	1160.5
3111.77	1162.7
3124.49	1161.9
3137.19	1161.3
3149.87	1162
3162.53	1161.8
3175.17	1160
3187.79	1163.9
3200.39	1159.2
3212.96	1162
3225.52	1164.3
3238.05	1158.3
3250.56	1159.1
3263.05	1156.2
3275.52	1159.9
3287.97	1163
3300.4	1161.6
3312.81	1159.6
3325.2	1159.8
3337.57	1158.6
3349.92	1159.3
3362.24	1155.8
3374.55	1159.4
3386.83	1160.8
3399.1	1157.9
3411.35	1155.8
3423.57	1155.4
3435.78	1156.8
3447.96	1159.2
3460.13	1154.5
3472.27	1155.7
3484.4	1158.5
3496.5	1155.2
3508.59	1159.4
3520.66	1155.1
3532.7	1157.2
3544.73	1155.4
3556.74	1156.4
3568.73	1154
3580.7	1155.6
3592.64	1155.3
3604.57	1154.4
3616.48	1154
3628.38	1154.8
3640.25	1153
3652.1	1155
3663.94	1155.9
3675.75	1152
3687.55	1156.4
3699.32	1156.8
3711.08	1153.1
3722.82	1153.8
3734.54	1154.6
3746.24	1156
3757.92	1153.2
3769.59	1156.1
3775.41	1149.3