Folder: graphene-raman/projects/Muestras y catálogo/Older versions/Raman_v1.0/Muestras_12-11-24/Data

File: Muestra 2_100x_zona2_cian.txt
-174.488	1147.1
-155.697	1146.4
-136.943	1146.8
-118.226	1146.7
-99.5451	1149
-80.9009	1149.2
-62.2932	1146.7
-43.7218	1149.6
-25.1866	1146.8
-6.6877	1149
11.7752	1151.6
30.202	1147.6
48.593	1146.8
66.9481	1147.3
85.2675	1406.1
103.551	1583.9
121.799	1540.5
140.012	1517.6
158.189	1519.1
176.332	1500.2
194.438	1498.2
212.51	1514.6
230.547	1532.6
248.548	1559.2
266.515	1565.9
284.447	1590.9
302.345	1658
320.208	1598.5
338.036	1546.6
355.83	1550.5
373.589	1517.4
391.314	1516.9
409.005	1517.9
426.662	1523.7
444.285	1503.5
461.874	1483.9
479.429	1496.8
496.95	1581.6
514.438	4869.7
531.892	2485.3
549.312	1615.3
566.699	1519.5
584.053	1491
601.373	1505.5
618.66	1513
635.914	1500.5
653.135	1502.5
670.324	1501.6
687.479	1481.3
704.601	1475.2
721.691	1472.7
738.748	1463.7
755.772	1481.6
772.764	1487.6
789.724	1481.3
806.651	1491.8
823.546	1507.4
840.409	1516.4
857.24	1519.8
874.039	1507.9
890.806	1515.7
907.541	1535.1
924.244	1556.6
940.915	1853.7
957.555	1882.6
974.164	1896.2
990.741	1754.2
1007.29	1603.5
1023.8	1549.7
1040.28	1527.7
1056.74	1515.2
1073.16	1504.2
1089.55	1526.2
1105.91	1536.3
1122.23	1539.7
1138.53	1551.3
1154.8	1559.2
1171.03	1573.4
1187.24	1598.4
1203.41	1598.9
1219.56	1632.9
1235.67	1650
1251.76	1659.6
1267.81	1666.1
1283.83	1700.9
1299.83	1727
1315.79	1794.4
1331.73	1879.7
1347.63	1952.7
1363.5	1824.1
1379.35	1803.7
1395.16	1739.6
1410.95	1724.5
1426.71	1730.7
1442.43	1718.4
1458.13	1727.9
1473.8	1718.9
1489.44	1721.8
1505.05	1734.9
1520.63	1783.5
1536.18	1808
1551.71	1951.9
1567.2	2466.8
1582.67	2874.2
1598.11	2104.5
1613.51	1914.9
1628.89	1764.5
1644.25	1657.6
1659.57	1604
1674.87	1589.9
1690.13	1577.4
1705.37	1553.5
1720.58	1561.7
1735.77	1557
1750.92	1555.5
1766.05	1558.2
1781.15	1554.9
1796.22	1548.5
1811.26	1549.2
1826.28	1540
1841.27	1549.6
1856.23	1529.5
1871.17	1538.8
1886.07	1555.4
1900.95	1533
1915.81	1539.6
1930.63	1538.7
1945.43	1530.2
1960.2	1525.3
1974.95	1531.6
1989.67	1524.3
2004.36	1542.8
2019.02	1523.3
2033.66	1539.6
2048.27	1540.9
2062.86	1527.2
2077.42	1528
2091.95	1520.8
2106.46	1517.2
2120.94	1512.7
2135.39	1524.8
2149.82	1514.5
2164.22	1510.9
2178.6	1501.2
2192.95	1512.9
2207.28	1522.1
2221.57	1514.6
2235.85	1510.5
2250.1	1503.7
2264.32	1500.9
2278.52	1501.5
2292.69	1491.3
2306.83	1510
2320.95	1484.5
2335.05	1499.1
2349.12	1508
2363.17	1512.8
2377.19	1503.8
2391.18	1507.4
2405.15	1512
2419.1	1511.5
2433.02	1543.6
2446.92	1557.8
2460.79	1556.2
2474.64	1532.9
2488.46	1515.6
2502.26	1517.5
2516.04	1515.6
2529.79	1510
2543.51	1516.6
2557.22	1512.7
2570.89	1508.4
2584.55	1525.2
2598.18	1527.6
2611.79	1550.2
2625.37	1596
2638.93	1709.1
2652.46	1955.1
2665.97	2264.6
2679.46	2439
2692.93	2220.8
2706.37	1869.3
2719.79	1663.1
2733.18	1560.9
2746.55	1528
2759.9	1508
2773.22	1489.5
2786.53	1459.5
2799.81	1467.5
2813.06	1458.3
2826.3	1448
2839.51	1435.9
2852.69	1442.9
2865.86	1436.5
2879	1449.4
2892.12	1442.1
2905.22	1434.7
2918.29	1435.9
2931.35	1421.9
2944.38	1423.3
2957.38	1408.9
2970.37	1398.9
2983.33	1388.3
2996.27	1397.1
3009.19	1387.1
3022.09	1391.8
3034.97	1379.1
3047.82	1371.1
3060.65	1363.5
3073.46	1363.8
3086.25	1364.6
3099.02	1346.5
3111.77	1355.9
3124.49	1358.8
3137.19	1339.3
3149.87	1356.1
3162.53	1344.5
3175.17	1342.8
3187.79	1341.2
3200.39	1327.2
3212.96	1336.3
3225.52	1346.8
3238.05	1354.3
3250.56	1324.7
3263.05	1311.5
3275.52	1305.1
3287.97	1304.5
3300.4	1307.7
3312.81	1298.8
3325.2	1289.6
3337.57	1292.3
3349.92	1286.4
3362.24	1287.1
3374.55	1283.9
3386.83	1280
3399.1	1274.9
3411.35	1273.2
3423.57	1272.8
3435.78	1273.9
3447.96	1270.6
3460.13	1258.5
3472.27	1266.8
3484.4	1256.3
3496.5	1259
3508.59	1248.1
3520.66	1245.8
3532.7	1245.1
3544.73	1241.2
3556.74	1240.2
3568.73	1230.7
3580.7	1234.6
3592.64	1227.7
3604.57	1231.1
3616.48	1230.5
3628.38	1226.7
3640.25	1229.5
3652.1	1226.7
3663.94	1224.7
3675.75	1215.7
3687.55	1219.9
3699.32	1220.8
3711.08	1214
3722.82	1212
3734.54	1211.8
3746.24	1210.6
3757.92	1209.5
3769.59	1208.5
3775.41	1204.4

File: Muestra 2_100x_zona2_rojo.txt
-174.488	1149.2
-155.697	1149.1
-136.943	1149.4
-118.226	1149.1
-99.5451	1147.1
-80.9009	1147.7
-62.2932	1149
-43.7218	1146.8
-25.1866	1148
-6.6877	1146.6
11.7752	1147.8
30.202	1147.2
48.593	1149.4
66.9481	1148.4
85.2675	1315
103.551	1417.4
121.799	1392.5
140.012	1366.7
158.189	1356.9
176.332	1350.9
194.438	1341
212.51	1341.4
230.547	1376.4
248.548	1384.4
266.515	1403.3
284.447	1415
302.345	1494.4
320.208	1427.4
338.036	1378.1
355.83	1362.5
373.589	1354.2
391.314	1336.3
409.005	1330.9
426.662	1335.1
444.285	1320.1
461.874	1285
479.429	1312.3
496.95	1408.8
514.438	4925.2
531.892	2376.4
549.312	1423.2
566.699	1326.8
584.053	1294
601.373	1291.1
618.66	1316.5
635.914	1296.2
653.135	1301.1
670.324	1302.4
687.479	1291.2
704.601	1264
721.691	1266.8
738.748	1263.7
755.772	1260.1
772.764	1270
789.724	1274.2
806.651	1289.5
823.546	1296.7
840.409	1289.9
857.24	1284.6
874.039	1284.8
890.806	1294.1
907.541	1298.8
924.244	1346.8
940.915	1646.3
957.555	1666.1
974.164	1665.8
990.741	1528.9
1007.29	1357.8
1023.8	1312.4
1040.28	1262.6
1056.74	1254.1
1073.16	1251.1
1089.55	1252.4
1105.91	1248
1122.23	1244
1138.53	1247.8
1154.8	1246.1
1171.03	1248.3
1187.24	1249.9
1203.41	1257.4
1219.56	1256.1
1235.67	1255.1
1251.76	1258.2
1267.81	1258.7
1283.83	1260.7
1299.83	1268.6
1315.79	1272.4
1331.73	1289.3
1347.63	1296.1
1363.5	1277.5
1379.35	1269
1395.16	1274.7
1410.95	1269.1
1426.71	1272.9
1442.43	1268.1
1458.13	1262.4
1473.8	1261
1489.44	1264.8
1505.05	1273.2
1520.63	1273.9
1536.18	1282.8
1551.71	1314.9
1567.2	1456.1
1582.67	1677.5
1598.11	1379.5
1613.51	1305
1628.89	1284.3
1644.25	1267.5
1659.57	1253
1674.87	1255.7
1690.13	1251.9
1705.37	1251.6
1720.58	1252.4
1735.77	1247.3
1750.92	1249.7
1766.05	1249
1781.15	1251.2
1796.22	1248.6
1811.26	1241.3
1826.28	1247.1
1841.27	1248.8
1856.23	1250.9
1871.17	1248.5
1886.07	1245.1
1900.95	1245.5
1915.81	1238.3
1930.63	1243.8
1945.43	1247.3
1960.2	1246.4
1974.95	1244.7
1989.67	1247.8
2004.36	1245.8
2019.02	1246.1
2033.66	1247.3
2048.27	1244.7
2062.86	1239.7
2077.42	1242
2091.95	1234.7
2106.46	1237.3
2120.94	1241.4
2135.39	1239.8
2149.82	1245.7
2164.22	1241.5
2178.6	1242.5
2192.95	1240.2
2207.28	1240
2221.57	1242.5
2235.85	1243.4
2250.1	1235.8
2264.32	1240.2
2278.52	1244.8
2292.69	1242.7
2306.83	1243.4
2320.95	1245.6
2335.05	1238.4
2349.12	1239.4
2363.17	1234.1
2377.19	1243.4
2391.18	1244
2405.15	1245.6
2419.1	1247.3
2433.02	1263.7
2446.92	1278.2
2460.79	1265.9
2474.64	1265.1
2488.46	1253
2502.26	1247.4
2516.04	1249.8
2529.79	1248.6
2543.51	1242
2557.22	1240.6
2570.89	1247.1
2584.55	1258.6
2598.18	1264
2611.79	1292.8
2625.37	1351.4
2638.93	1488.1
2652.46	1782.2
2665.97	2013.4
2679.46	1839
2692.93	1540.7
2706.37	1366.6
2719.79	1299.7
2733.18	1270.7
2746.55	1253.6
2759.9	1243.1
2773.22	1243.4
2786.53	1229.5
2799.81	1226.4
2813.06	1234.6
2826.3	1226.5
2839.51	1223.1
2852.69	1224.1
2865.86	1228.4
2879	1224.8
2892.12	1225
2905.22	1218.7
2918.29	1215.3
2931.35	1220.4
2944.38	1210.2
2957.38	1218.3
2970.37	1216.3
2983.33	1211.4
2996.27	1211.5
3009.19	1216.7
3022.09	1207.9
3034.97	1205.6
3047.82	1205.2
3060.65	1200.8
3073.46	1202
3086.25	1204.9
3099.02	1202.9
3111.77	1205.2
3124.49	1204.5
3137.19	1199
3149.87	1197
3162.53	1202.5
3175.17	1201.7
3187.79	1198.4
3200.39	1201.1
3212.96	1197.3
3225.52	1215.5
3238.05	1225
3250.56	1208.5
3263.05	1198.6
3275.52	1193.5
3287.97	1190.9
3300.4	1187
3312.81	1187.9
3325.2	1192.5
3337.57	1186.9
3349.92	1187.9
3362.24	1188.3
3374.55	1187.1
3386.83	1187.3
3399.1	1182.1
3411.35	1184.3
3423.57	1185.3
3435.78	1176.3
3447.96	1180.6
3460.13	1180.5
3472.27	1174
3484.4	1175.1
3496.5	1181
3508.59	1178.3
3520.66	1176.1
3532.7	1174.4
3544.73	1178
3556.74	1172.8
3568.73	1172
3580.7	1175.6
3592.64	1172.2
3604.57	1172.3
3616.48	1169.9
3628.38	1168.9
3640.25	1173.8
3652.1	1166.3
3663.94	1172.3
3675.75	1170.8
3687.55	1172.9
3699.32	1168.9
3711.08	1166.5
3722.82	1162.8
3734.54	1167.2
3746.24	1167.9
3757.92	1164.2
3769.59	1167.1
3775.41	1165.7

File: Muestra 2_100x_zona2_verde.txt
-174.488	1148.5
-155.697	1148.1
-136.943	1148.7
-118.226	1147.9
-99.5451	1148
-80.9009	1148.6
-62.2932	1149.6
-43.7218	1149.2
-25.1866	1149.5
-6.6877	1148.7
11.7752	1147.7
30.202	1147.8
48.593	1146.9
66.9481	1149.2
85.2675	1325.7
103.551	1419
121.799	1407
140.012	1384.1
158.189	1375.9
176.332	1367.5
194.438	1364.3
212.51	1368.2
230.547	1401.3
248.548	1413.9
266.515	1413.3
284.447	1447.4
302.345	1534.5
320.208	1438.5
338.036	1416.3
355.83	1400.3
373.589	1387
391.314	1365.5
409.005	1377.5
426.662	1377
444.285	1361.7
461.874	1332.4
479.429	1359.2
496.95	1447.1
514.438	4603.9
531.892	2323.4
549.312	1455
566.699	1361.6
584.053	1339
601.373	1341.5
618.66	1366.1
635.914	1344.6
653.135	1343.1
670.324	1347.6
687.479	1333.2
704.601	1315
721.691	1314.6
738.748	1316.7
755.772	1333.6
772.764	1326.9
789.724	1321.8
806.651	1343.3
823.546	1348.2
840.409	1346.5
857.24	1334.3
874.039	1337.9
890.806	1352.6
907.541	1347
924.244	1399.1
940.915	1660.5
957.555	1679.6
974.164	1677.2
990.741	1550
1007.29	1421.4
1023.8	1369.2
1040.28	1322.1
1056.74	1317.6
1073.16	1317.2
1089.55	1318.6
1105.91	1322.1
1122.23	1321.4
1138.53	1327.7
1154.8	1323.2
1171.03	1316.9
1187.24	1321.7
1203.41	1331.1
1219.56	1333
1235.67	1336.7
1251.76	1348.2
1267.81	1347.6
1283.83	1355.6
1299.83	1354.1
1315.79	1365.6
1331.73	1375.6
1347.63	1377.8
1363.5	1382.4
1379.35	1363.6
1395.16	1365.4
1410.95	1368.3
1426.71	1372.7
1442.43	1371
1458.13	1355.7
1473.8	1368.4
1489.44	1366.2
1505.05	1361.7
1520.63	1370.3
1536.18	1383.5
1551.71	1413.2
1567.2	1556.9
1582.67	1936.8
1598.11	1514
1613.51	1409.5
1628.89	1369.2
1644.25	1368.7
1659.57	1345.8
1674.87	1342.6
1690.13	1321.6
1705.37	1332.8
1720.58	1339.6
1735.77	1331.9
1750.92	1328.6
1766.05	1340.2
1781.15	1335.3
1796.22	1336.7
1811.26	1326.6
1826.28	1334.3
1841.27	1343.2
1856.23	1332.6
1871.17	1332.1
1886.07	1343.7
1900.95	1340.4
1915.81	1324.2
1930.63	1331.4
1945.43	1333.3
1960.2	1333.8
1974.95	1337.4
1989.67	1340.9
2004.36	1336
2019.02	1336.6
2033.66	1331.9
2048.27	1325.1
2062.86	1331.9
2077.42	1332.5
2091.95	1331.9
2106.46	1331.4
2120.94	1325.7
2135.39	1328
2149.82	1325.6
2164.22	1324.6
2178.6	1332.7
2192.95	1333.6
2207.28	1324.7
2221.57	1330.1
2235.85	1325.1
2250.1	1324.2
2264.32	1315.5
2278.52	1326.4
2292.69	1316.4
2306.83	1317.1
2320.95	1318.8
2335.05	1321.8
2349.12	1322.7
2363.17	1323.3
2377.19	1322.6
2391.18	1321.6
2405.15	1317.5
2419.1	1328.6
2433.02	1341
2446.92	1361.8
2460.79	1343.7
2474.64	1337.2
2488.46	1331.8
2502.26	1329.4
2516.04	1319.8
2529.79	1325.5
2543.51	1325.4
2557.22	1325
2570.89	1321.3
2584.55	1327.5
2598.18	1334
2611.79	1354.4
2625.37	1394
2638.93	1513.5
2652.46	1817.9
2665.97	2129.5
2679.46	1999.6
2692.93	1671.7
2706.37	1468.1
2719.79	1392.7
2733.18	1338
2746.55	1329.5
2759.9	1310.5
2773.22	1316.9
2786.53	1299
2799.81	1300.5
2813.06	1296.7
2826.3	1288.7
2839.51	1295.3
2852.69	1296.7
2865.86	1289.8
2879	1288.7
2892.12	1287.3
2905.22	1279.6
2918.29	1277.6
2931.35	1274
2944.38	1280.2
2957.38	1275.7
2970.37	1271.5
2983.33	1268.5
2996.27	1269.4
3009.19	1263.6
3022.09	1264.7
3034.97	1258.1
3047.82	1263.4
3060.65	1257.8
3073.46	1254.7
3086.25	1249
3099.02	1261.4
3111.77	1255.2
3124.49	1251.3
3137.19	1251.5
3149.87	1252.3
3162.53	1249.2
3175.17	1236.7
3187.79	1247.8
3200.39	1237.7
3212.96	1242.8
3225.52	1261.6
3238.05	1269.4
3250.56	1253.3
3263.05	1239.7
3275.52	1232
3287.97	1231.3
3300.4	1232.1
3312.81	1227.9
3325.2	1223.1
3337.57	1226.8
3349.92	1217
3362.24	1215.9
3374.55	1220.3
3386.83	1222.2
3399.1	1223.9
3411.35	1213.7
3423.57	1216.8
3435.78	1210.5
3447.96	1205.2
3460.13	1207.1
3472.27	1211.8
3484.4	1206.7
3496.5	1207.5
3508.59	1200.1
3520.66	1205.3
3532.7	1199
3544.73	1203.3
3556.74	1204.1
3568.73	1197
3580.7	1198.3
3592.64	1200.8
3604.57	1197.6
3616.48	1196.5
3628.38	1190.5
3640.25	1188.1
3652.1	1186.2
3663.94	1190.8
3675.75	1189.4
3687.55	1185.3
3699.32	1183
3711.08	1184.7
3722.82	1184.5
3734.54	1183.1
3746.24	1179.1
3757.92	1183.6
3769.59	1180.6
3775.41	1183.5

File: Muestra 3_20x_zona1_rojo.txt
-174.488	1148.3
-155.697	1146
-136.943	1147.2
-118.226	1146.3
-99.5451	1148
-80.9009	1146.6
-62.2932	1148.6
-43.7218	1150.6
-25.1866	1148.9
-6.6877	1149.7
11.7752	1152.5
30.202	1148.6
48.593	1148.8
66.9481	1149.4
85.2675	1295.1
103.551	1381.9
121.799	1345.6
140.012	1321.7
158.189	1304.1
176.332	1294.9
194.438	1289.7
212.51	1282
230.547	1294.7
248.548	1309.6
266.515	1310.5
284.447	1318.1
302.345	1358.4
320.208	1311.3
338.036	1284.9
355.83	1277.1
373.589	1259.1
391.314	1252.1
409.005	1244.6
426.662	1241.8
444.285	1228.9
461.874	1206.9
479.429	1219.7
496.95	1276
514.438	3182.1
531.892	2155.9
549.312	1456.4
566.699	1323.1
584.053	1287.6
601.373	1275.1
618.66	1297.2
635.914	1273
653.135	1262.1
670.324	1262.3
687.479	1253.5
704.601	1243.8
721.691	1234.4
738.748	1231.7
755.772	1236.8
772.764	1229.6
789.724	1235.2
806.651	1238.9
823.546	1240.3
840.409	1234.9
857.24	1231.3
874.039	1231
890.806	1239.3
907.541	1239.8
924.244	1268.6
940.915	1426.2
957.555	1423.9
974.164	1449.5
990.741	1358.9
1007.29	1267.8
1023.8	1234.4
1040.28	1211.4
1056.74	1209.3
1073.16	1203.9
1089.55	1200.9
1105.91	1205.5
1122.23	1202.1
1138.53	1198.4
1154.8	1197.1
1171.03	1199.9
1187.24	1197.8
1203.41	1203.5
1219.56	1200.2
1235.67	1204.2
1251.76	1197.9
1267.81	1201.5
1283.83	1193.1
1299.83	1194.6
1315.79	1196.9
1331.73	1197
1347.63	1196.5
1363.5	1194.3
1379.35	1194.1
1395.16	1192.7
1410.95	1194
1426.71	1192.4
1442.43	1200.8
1458.13	1190.2
1473.8	1192.4
1489.44	1185.6
1505.05	1185.8
1520.63	1185.3
1536.18	1182.4
1551.71	1188.3
1567.2	1189
1582.67	1187.9
1598.11	1186.8
1613.51	1189.5
1628.89	1182.6
1644.25	1186.6
1659.57	1190.7
1674.87	1185.2
1690.13	1179.2
1705.37	1177.5
1720.58	1177.9
1735.77	1180.8
1750.92	1179.4
1766.05	1183.7
1781.15	1179
1796.22	1182.8
1811.26	1181.9
1826.28	1181.8
1841.27	1175.9
1856.23	1179.2
1871.17	1178.4
1886.07	1178.9
1900.95	1176.2
1915.81	1177.5
1930.63	1181.4
1945.43	1178
1960.2	1180.8
1974.95	1175.1
1989.67	1175.8
2004.36	1177.1
2019.02	1175.6
2033.66	1181.3
2048.27	1177.5
2062.86	1173.2
2077.42	1176.6
2091.95	1176.6
2106.46	1180.5
2120.94	1174.9
2135.39	1176.8
2149.82	1178.6
2164.22	1181.5
2178.6	1176.8
2192.95	1175.8
2207.28	1175.3
2221.57	1178.3
2235.85	1175.9
2250.1	1176.9
2264.32	1173
2278.52	1179.2
2292.69	1175.4
2306.83	1172.5
2320.95	1169
2335.05	1172.8
2349.12	1173.1
2363.17	1174.2
2377.19	1174.1
2391.18	1173.8
2405.15	1170.9
2419.1	1169.4
2433.02	1174.2
2446.92	1173.9
2460.79	1174.8
2474.64	1175.5
2488.46	1175.3
2502.26	1173.9
2516.04	1172.4
2529.79	1171.9
2543.51	1173.4
2557.22	1173.8
2570.89	1169.1
2584.55	1172.2
2598.18	1173.7
2611.79	1172.3
2625.37	1175.4
2638.93	1173.3
2652.46	1171.5
2665.97	1173.5
2679.46	1173.4
2692.93	1169.1
2706.37	1173.5
2719.79	1171.1
2733.18	1171
2746.55	1172.4
2759.9	1171.9
2773.22	1173
2786.53	1174.8
2799.81	1169
2813.06	1171
2826.3	1171.4
2839.51	1169.5
2852.69	1179.6
2865.86	1176.2
2879	1184.8
2892.12	1185.3
2905.22	1189.7
2918.29	1188.7
2931.35	1189.1
2944.38	1187.8
2957.38	1180.3
2970.37	1174.5
2983.33	1173.5
2996.27	1174.3
3009.19	1172.5
3022.09	1171.5
3034.97	1167.4
3047.82	1166.8
3060.65	1171.2
3073.46	1166.3
3086.25	1165
3099.02	1166.2
3111.77	1164.5
3124.49	1165.1
3137.19	1165.9
3149.87	1165.1
3162.53	1167.8
3175.17	1166.2
3187.79	1165.6
3200.39	1165
3212.96	1165.7
3225.52	1163.3
3238.05	1164.8
3250.56	1164
3263.05	1163.6
3275.52	1167.1
3287.97	1168.6
3300.4	1166.7
3312.81	1164.8
3325.2	1163.1
3337.57	1160.8
3349.92	1163.8
3362.24	1163.7
3374.55	1162.7
3386.83	1161.3
3399.1	1167.5
3411.35	1159.8
3423.57	1163.5
3435.78	1162.6
3447.96	1161.5
3460.13	1159.3
3472.27	1160.8
3484.4	1159.5
3496.5	1156.6
3508.59	1162.5
3520.66	1162.9
3532.7	1160.9
3544.73	1160.8
3556.74	1159.6
3568.73	1159.4
3580.7	1161.9
3592.64	1159.2
3604.57	1159.3
3616.48	1158.3
3628.38	1153.8
3640.25	1159.2
3652.1	1159.1
3663.94	1158.9
3675.75	1155.3
3687.55	1155.1
3699.32	1158.5
3711.08	1155.9
3722.82	1159.7
3734.54	1153.4
3746.24	1157
3757.92	1155.6
3769.59	1154.1
3775.41	1156.1